File: Hysteresis/Spring_2023/SP23_up_sonde.csv
Date_Time,Actual Conductivity (uS/cm) (923301),Specific Conductivity (uS/cm) (923301),Salinity (PSU) (923301),Resistivity (ohm cm) (923301),Density (g/cm3) (923301),Total Dissolved Solids (ppt) (923301),Turbidity (NTU) (922381),FDOM Fluorescence (RFU) (910042),Temperature (C) (927764),External Voltage (V) (927764),Battery Capacity (%) (927764),Barometric Pressure (mm Hg) (927764),Pressure (kPa) (925780),Depth (m) (925780)
4/17/2023 12:14,0,0,4.66E-10,1.00E+07,0.9973217,0,3.816212,0.0121108,23.90946,0.108,99,77.92348,0.1771531,-0.04249595
4/17/2023 13:29,0,0,2.33E-10,1.00E+07,0.9973264,0,4.28539,0.004675724,23.89041,0.09,99,75.98747,0.1074347,0.005659998
4/17/2023 14:44,0,0,0,1.00E+07,0.9986553,0,4.657146,0,17.68458,0,99,72.97848,0.1516934,0.1019585
4/17/2023 15:59,36.18444,56.61375,0.02524414,27636.19,0.9999598,0.03679894,18.40149,0.7242773,6.107106,0,99,72.93247,1.971955,0.2003603
4/17/2023 17:14,34.92356,55.81083,0.02480249,28633.96,0.999979,0.03627704,28.38317,0.8117532,5.405698,0,99,72.86247,2.020619,0.1951123
4/17/2023 18:29,34.46516,56.04797,0.02486394,29014.8,0.9999892,0.03643118,18.9845,0.8856248,4.838883,0,99,72.83847,1.978037,0.1920053
4/17/2023 19:44,34.24647,56.40123,0.0249926,29200.09,0.9999935,0.0366608,12.69171,0.9134121,4.434226,0,99,72.84048,1.974664,0.1991905
4/17/2023 20:59,34.21107,56.84554,0.02517476,29230.31,0.9999951,0.0369496,20.99287,0.9230654,4.153141,0,99,72.85348,1.946778,0.2094953
4/17/2023 22:14,34.24575,57.20442,0.02532732,29200.71,0.9999955,0.03718287,13.60092,0.9227747,3.987201,0,99,72.89348,1.989222,0.1955936
4/17/2023 23:29,34.28077,57.52802,0.02546498,29170.87,0.9999954,0.03739321,39.91261,0.8986982,3.842775,0,99,72.85147,2.000163,0.2017821
4/18/2023 0:44,34.39014,57.81106,0.02559297,29078.1,0.9999954,0.03757719,11.75775,0.8823828,3.78907,0,99,72.86847,1.980582,0.1936167
4/18/2023 1:59,34.46802,58.01315,0.02568432,29012.4,0.9999954,0.03770855,12.8207,0.8681275,3.750859,0,99,72.82748,1.928012,0.1944266
4/18/2023 3:14,34.49606,58.17204,0.0257528,28988.82,0.9999952,0.03781183,10.91404,0.8338496,3.691135,0,99,72.79248,1.955089,0.1906991
4/18/2023 4:29,34.54131,58.35934,0.02583471,28950.85,0.9999949,0.03793357,12.88775,0.8168558,3.632081,0,99,72.80148,1.897673,0.1891694
4/18/2023 5:44,34.56476,58.48053,0.02588709,28931.2,0.9999947,0.03801234,11.37261,0.787451,3.588861,0,99,72.78748,1.88466,0.1863426
4/18/2023 6:59,34.60506,58.56166,0.02592463,28897.5,0.9999947,0.03806508,13.54332,0.7788397,3.582029,0,99,72.78548,1.826797,0.1760789
4/18/2023 8:14,34.86534,58.53925,0.02594137,28681.78,0.9999958,0.03805052,13.82907,0.7711642,3.826653,0,99,72.78748,1.836871,0.1923829
4/18/2023 9:29,35.54678,58.36652,0.02593398,28131.94,0.9999934,0.03793824,10.83413,0.7295442,4.530201,0,99,72.74747,1.864829,0.1966943
4/18/2023 10:44,36.70861,58.18339,0.02595556,27241.57,0.9999732,0.0378192,10.28739,0.6821871,5.676028,0,99,72.78147,1.840954,0.1898987
4/18/2023 11:59,37.53286,57.98555,0.02593309,26643.32,0.9999449,0.03769061,10.72789,0.6745706,6.53296,0,99,72.74847,1.79014,0.1917125
4/18/2023 13:14,37.93486,57.64223,0.02581236,26360.98,0.9999202,0.03746745,14.06466,0.6720007,7.099934,0,99,72.67847,1.895543,0.197132
4/18/2023 14:29,37.15078,56.78477,0.02538732,26917.33,0.9999292,0.03691011,14.85777,0.6908557,6.8973,0,99,72.64548,1.871352,0.185584
4/18/2023 15:44,35.86151,55.75288,0.02485046,27885.05,0.9999521,0.03623937,19.3595,0.7595489,6.320554,0,99,72.62447,1.925408,0.1921629
4/18/2023 16:59,34.7269,55.15497,0.02450772,28796.12,0.9999738,0.03585073,159.9877,0.844026,5.608593,0,99,72.58548,2.056954,0.2097566
4/18/2023 18:14,33.91258,55.12594,0.02442744,29487.58,0.9999887,0.03583186,32.33368,0.8770445,4.852549,0,99,72.59947,1.973244,0.2092696
4/18/2023 19:29,33.77261,55.46368,0.02455686,29609.8,0.9999924,0.03605139,15.18922,0.9495546,4.524288,0,99,72.59848,1.986539,0.1977404
4/18/2023 20:44,33.80151,55.94736,0.02476178,29584.48,0.9999943,0.03636579,16.97635,0.9583401,4.27572,0,99,72.66748,1.918471,0.2006479
4/18/2023 21:59,33.90784,56.32864,0.02493075,29491.7,0.9999949,0.03661361,15.0072,0.9466521,4.160446,0,99,72.75147,1.975058,0.1908974
4/18/2023 23:14,34.06249,56.67653,0.02509028,29357.8,0.9999952,0.03683975,12.30466,0.9266669,4.109852,0,99,72.73547,1.891137,0.1876911
4/19/2023 0:29,34.04945,56.86073,0.02516561,29369.05,0.9999954,0.03695947,13.25289,0.9079062,3.995908,0,99,72.76947,1.88633,0.1818323
4/19/2023 1:44,34.07769,57.17915,0.02530048,29344.71,0.9999953,0.03716645,12.64392,0.8863556,3.847181,0,99,72.78047,1.813088,0.1757427
4/19/2023 2:59,34.11939,57.37382,0.02538521,29308.85,0.9999952,0.03729299,11.75264,0.8617229,3.779353,0,99,72.71147,1.87026,0.1870415
4/19/2023 4:14,34.18234,57.49733,0.02544256,29254.87,0.9999952,0.03737327,13.60912,0.8313603,3.769791,0,99,72.70148,1.847286,0.1861705
4/19/2023 5:29,34.23899,57.6824,0.02552474,29206.46,0.9999951,0.03749356,13.49538,0.8099151,3.721355,0,99,72.67447,1.902683,0.1874709
4/19/2023 6:44,34.22102,57.76498,0.02555708,29221.81,0.9999948,0.03754723,12.39657,0.790472,3.66063,0,99,72.64248,2.003477,0.1984286
4/19/2023 7:59,34.45589,57.68671,0.0255479,29022.61,0.9999956,0.03749636,31.66414,0.7773276,3.915883,0,99,72.66947,1.853138,0.1823573
4/19/2023 9:14,34.86031,57.65319,0.02557252,28685.92,0.9999948,0.03747457,12.07748,0.7571948,4.301328,0,99,72.65647,1.822786,0.1919693
4/19/2023 10:29,35.97532,57.52958,0.02561828,27796.84,0.9999801,0.03739423,12.13556,0.7011909,5.384079,0,99,72.64048,1.827041,0.1806826
4/19/2023 11:44,36.89435,57.35493,0.02561521,27104.42,0.9999526,0.0372807,12.27397,0.6778652,6.322715,0,99,72.59748,1.839889,0.1960837
4/19/2023 12:59,37.35765,57.09117,0.02553424,26768.28,0.9999291,0.03710926,10.18775,0.6754139,6.903189,0,99,72.52748,1.901145,0.190937
4/19/2023 14:14,36.80919,56.5617,0.02526713,27167.13,0.9999369,0.03676511,13.51507,0.6987501,6.716195,0,99,72.52748,1.87535,0.196359
4/19/2023 15:29,35.82645,55.76847,0.02485459,27912.34,0.9999536,0.03624951,12.88833,0.7524487,6.27822,0,99,72.47147,1.932259,0.1963099
4/19/2023 16:44,34.83099,55.4376,0.02463636,28710.07,0.9999757,0.03603444,15.6608,0.8163729,5.538836,0,99,72.47848,2.008192,0.1940069
4/19/2023 17:59,34.14925,55.49092,0.02460179,29283.22,0.9999887,0.0360691,14.16259,0.8704726,4.864,0,99,72.50448,1.852684,0.1790803
4/19/2023 19:14,33.8913,55.72598,0.02467752,29506.1,0.9999929,0.03622189,14.36804,0.8776577,4.485739,0,99,72.57547,1.966096,0.2061193
4/19/2023 20:29,33.70492,56.03319,0.02478848,29669.26,0.9999948,0.03642157,12.35183,0.8611038,4.13702,0,99,72.69848,1.923652,0.1910267
4/19/2023 21:44,33.53667,56.2869,0.02487764,29818.1,0.9999949,0.03658648,11.34906,0.8520575,3.838569,0,99,72.81148,1.894846,0.1858824
4/19/2023 22:59,33.493,56.59025,0.0249988,29856.98,0.9999943,0.03678366,12.08465,0.8240856,3.630951,0,99,72.86347,1.930379,0.1877107
4/20/2023 0:14,33.38329,56.74734,0.02505242,29955.11,0.999993,0.03688577,10.55929,0.7991078,3.443942,0,99,72.90748,1.914986,0.1945061
4/20/2023 1:29,33.34797,56.97547,0.02514256,29986.83,0.9999915,0.03703406,11.20587,0.7828122,3.288168,0,99,72.95148,1.843814,0.1843407
4/20/2023 2:44,33.2805,57.11,0.02519062,30047.63,0.9999899,0.0371215,11.62924,0.7555932,3.154126,0,99,72.93647,1.91686,0.191246
4/20/2023 3:59,33.19516,57.23998,0.02523467,30124.87,0.9999878,0.03720599,10.98657,0.742243,3.006792,0,99,72.94147,1.942938,0.1944483
4/20/2023 5:14,33.10529,57.33161,0.02526231,30206.66,0.9999856,0.03726555,11.53397,0.7221233,2.876185,0,99,72.99249,1.840237,0.1913361
4/20/2023 6:29,33.04385,57.46185,0.02530857,30262.82,0.9999833,0.0373502,11.48116,0.7054597,2.751683,0,99,73.03748,1.864454,0.1813082
4/20/2023 7:44,33.06365,57.46133,0.02531056,30244.7,0.9999837,0.03734987,10.44731,0.6981616,2.769998,0,99,73.13548,1.921121,0.1909956
4/20/2023 8:59,33.53065,57.3641,0.02532119,29823.46,0.9999912,0.03728667,11.03762,0.6827133,3.247288,0,99,73.18948,1.800299,0.1772461
4/20/2023 10:14,34.42964,56.97198,0.02524803,29044.74,0.9999946,0.03703179,11.35758,0.6680499,4.284072,0,99,73.19147,1.872055,0.1864904
4/20/2023 11:29,35.49787,56.95571,0.02533545,28170.7,0.9999821,0.03702121,9.696771,0.6511976,5.275073,0,99,73.19647,1.73206,0.1685558
4/20/2023 12:44,36.35186,56.80596,0.02533916,27508.91,0.9999586,0.03692387,9.856044,0.6419938,6.148189,0,99,73.16548,1.831071,0.1895209
4/20/2023 13:59,36.45794,56.69749,0.02530046,27428.87,0.9999529,0.03685337,9.713185,0.6462974,6.310238,0,98,73.16948,1.779501,0.1719177
4/20/2023 15:14,36.1409,56.53868,0.02520867,27669.48,0.9999596,0.03675014,11.84244,0.653013,6.111221,0,98,73.15647,1.770558,0.1693461
4/20/2023 16:29,35.39114,56.44509,0.02511002,28255.66,0.9999776,0.03668931,10.25287,0.6721486,5.471271,0,98,73.11947,1.863034,0.182943
4/20/2023 17:44,34.50615,56.54295,0.02507556,28980.35,0.9999923,0.03675292,9.61454,0.6909848,4.594992,0,98,73.12547,1.959797,0.1932319
4/20/2023 18:59,34.05894,56.54629,0.02503571,29360.87,0.9999949,0.03675509,9.809132,0.6912181,4.179033,0,98,73.15647,1.798096,0.1882911
4/20/2023 20:14,33.98046,56.8511,0.02515494,29428.68,0.9999953,0.03695321,11.49526,0.6820285,3.937688,0,98,73.16648,1.807439,0.1828991
4/20/2023 21:29,33.77744,56.99584,0.02519487,29605.56,0.9999946,0.0370473,13.03298,0.6755078,3.671724,0,98,73.28147,1.849969,0.1820451
4/20/2023 22:44,33.62876,57.11912,0.02523067,29736.45,0.9999933,0.03712743,9.633142,0.6697794,3.468471,0,98,73.32047,1.810504,0.182415
4/20/2023 23:59,33.54268,57.20971,0.02525905,29812.77,0.9999922,0.03718632,9.933173,0.6642407,3.340886,0,98,73.37247,1.833866,0.1811287
4/21/2023 1:14,33.41868,57.31516,0.02528931,29923.38,0.9999902,0.03725485,8.333714,0.6575013,3.171144,0,98,73.41048,1.83213,0.1833138
4/21/2023 2:29,33.3036,57.41033,0.02531597,30026.78,0.999988,0.03731671,9.683845,0.653345,3.015587,0,98,73.39047,1.821728,0.1938387
4/21/2023 3:44,33.19615,57.51809,0.02534827,30123.97,0.9999854,0.03738676,8.810134,0.6479996,2.860878,0,98,73.36948,1.813502,0.1885986
4/21/2023 4:59,33.13266,57.59956,0.02537444,30181.7,0.9999835,0.03743972,8.09129,0.6422375,2.760425,0,98,73.34248,1.82299,0.1748894
4/21/2023 6:14,33.14029,57.71398,0.02542182,30174.75,0.9999825,0.03751409,7.172431,0.6373204,2.707642,0,98,73.37447,1.793776,0.1777782
4/21/2023 7:29,33.19672,57.68961,0.02541817,30123.46,0.9999838,0.03749824,14.01398,0.6378133,2.77156,0.009,98,73.39948,1.797169,0.177379
4/21/2023 8:44,33.55458,57.46287,0.02536422,29802.19,0.9999908,0.03735087,8.060939,0.6336672,3.216495,0,98,73.41048,1.792934,0.1798927
4/21/2023 9:59,34.43572,57.04295,0.0252782,29039.61,0.9999948,0.03707792,8.485124,0.6234271,4.250292,0,98,73.40347,1.770716,0.1790929
4/21/2023 11:14,35.55375,56.74277,0.02524973,28126.43,0.9999783,0.0368828,8.742898,0.6045785,5.449088,0,98,73.38747,1.674598,0.1628111
4/21/2023 12:29,36.52443,56.6724,0.02529453,27378.94,0.9999501,0.03683706,9.401575,0.5990955,6.386566,0,98,73.35848,1.669397,0.1597188
4/21/2023 13:44,36.83247,56.57471,0.02527437,27149.96,0.9999364,0.03677356,7.488872,0.6036928,6.72991,0,98,73.32248,1.756086,0.1706611
4/21/2023 14:59,36.55451,56.32061,0.02514504,27356.4,0.9999407,0.0366084,28.57624,0.6198147,6.625297,0,98,73.22948,1.784156,0.1723976
4/21/2023 16:14,35.67155,55.90925,0.02490341,28033.55,0.9999614,0.03634101,9.850156,0.6443223,6.048475,0,98,73.12447,1.798365,0.1775142
4/21/2023 17:29,34.79248,55.84395,0.02480572,28741.84,0.9999819,0.03629857,11.15097,0.6646854,5.263373,0,98,73.09447,1.802863,0.1801777
4/21/2023 18:44,34.24093,55.85121,0.02476144,29204.81,0.9999903,0.03630329,11.12215,0.6766857,4.742101,0,98,73.09647,1.761451,0.1704817
4/21/2023 19:59,34.04129,56.11089,0.02485232,29376.09,0.9999936,0.03647208,8.232473,0.6743734,4.407267,0,98,73.14248,1.77503,0.1802684
4/21/2023 21:14,33.86538,56.2874,0.02490955,29528.68,0.9999949,0.03658681,8.375389,0.6667404,4.144041,0,98,73.18348,1.736643,0.1675494
4/21/2023 22:29,33.89426,56.44917,0.02497963,29503.52,0.9999951,0.03669196,8.143939,0.6616532,4.080558,0,98,73.18648,1.782085,0.1718968
4/21/2023 23:44,33.85138,56.54374,0.02501483,29540.89,0.9999952,0.03675343,8.452457,0.6554646,3.988274,0,98,73.14048,1.819512,0.1820176
4/22/2023 0:59,33.85395,56.65276,0.02506034,29538.65,0.9999952,0.03682429,7.530726,0.6511894,3.930333,0,98,73.10847,1.757263,0.1686822
4/22/2023 2:14,33.88622,56.75287,0.02510502,29510.52,0.9999952,0.03688936,9.082696,0.6469923,3.90491,0,98,73.04748,1.79945,0.1790821
4/22/2023 3:29,33.96115,56.84346,0.02514989,29445.41,0.9999953,0.03694825,9.365844,0.6400954,3.924111,0,98,73.02447,1.751937,0.1764447
4/22/2023 4:44,33.94989,56.92251,0.02518158,29455.18,0.9999952,0.03699963,8.360759,0.6350968,3.87031,0,98,73.03348,1.762819,0.1685636
4/22/2023 5:59,34.03185,57.00303,0.02522298,29384.24,0.9999954,0.03705197,8.004535,0.6312419,3.901479,0,98,73.04248,1.691989,0.1703317
4/22/2023 7:14,33.88893,57.04186,0.025225,29508.16,0.999995,0.03707721,9.834915,0.6288784,3.749022,0,98,73.04748,1.718357,0.1730223
4/22/2023 8:29,34.12405,56.8939,0.02518658,29304.84,0.9999953,0.03698104,6.758419,0.6299819,4.046286,0,98,73.03647,1.732566,0.1707923
4/22/2023 9:44,34.86172,56.69069,0.02516921,28684.76,0.9999894,0.03684895,7.890913,0.6174101,4.840107,0,98,73.00948,1.719501,0.1709292
4/22/2023 10:59,35.16531,56.66054,0.02518262,28437.11,0.9999847,0.03682935,6.565741,0.6130235,5.137772,0,98,73.02948,1.731501,0.1728911
4/22/2023 12:14,37.00602,56.3155,0.02517395,27022.63,0.9999222,0.03660508,20.62761,0.5920147,7.04814,0,98,72.96147,1.68667,0.1635765
4/22/2023 13:29,36.71629,56.26835,0.02513376,27235.87,0.999933,0.03657443,7.985104,0.6035398,6.807389,0,98,72.92348,1.684217,0.1710187
4/22/2023 14:44,36.75167,55.83194,0.02494689,27209.65,0.9999192,0.03629076,9.127635,0.6157589,7.107605,0,98,72.86548,1.759209,0.1735312
4/22/2023 15:59,35.95819,55.40446,0.02470726,27810.08,0.9999404,0.0360129,9.279103,0.6404716,6.623697,0,98,72.83947,1.7733,0.1892772
4/22/2023 17:14,34.91732,55.02565,0.02446751,28639.08,0.9999667,0.03576667,9.580073,0.6680195,5.867252,0,98,72.84347,1.795229,0.1764497
4/22/2023 18:29,34.12578,54.98552,0.02438646,29303.36,0.9999841,0.03574059,8.296978,0.6921569,5.13781,0,98,72.86147,1.750707,0.1777902
4/22/2023 19:44,33.88023,55.16063,0.02443921,29515.73,0.9999893,0.03585441,8.798284,0.7046742,4.801593,0,98,72.89748,1.782138,0.1760998
4/22/2023 20:59,33.70687,55.45356,0.02454664,29667.54,0.9999929,0.03604481,9.081555,0.6939471,4.468048,0,98,72.95847,1.747091,0.1744773
4/22/2023 22:14,33.60217,55.725,0.02465036,29759.98,0.9999945,0.03622125,8.502469,0.6815181,4.214651,0,98,73.02047,1.761077,0.1773769
4/22/2023 23:29,33.52494,55.94706,0.02473547,29828.54,0.999995,0.03636559,7.103741,0.6691239,4.017073,0,98,73.00348,1.827836,0.1805133
4/23/2023 0:44,33.45427,56.11854,0.02479978,29891.55,0.9999949,0.03647705,6.769693,0.6657776,3.855279,0,98,73.02447,1.754087,0.174454
4/23/2023 1:59,33.31314,56.24771,0.02483926,30018.18,0.9999942,0.03656101,7.328658,0.6586832,3.652238,0,98,73.00648,1.794216,0.1800241
4/23/2023 3:14,33.21265,56.38807,0.024887,30109.01,0.9999931,0.03665224,7.43536,0.6523483,3.481746,0,98,72.97748,1.801877,0.1756498
4/23/2023 4:29,33.11659,56.44861,0.02490203,30196.34,0.9999921,0.0366916,9.649465,0.6454817,3.359578,0,98,72.96947,1.713866,0.1674199
4/23/2023 5:44,33.11362,56.51899,0.02493064,30199.05,0.9999917,0.03673734,8.16649,0.638754,3.318585,0,98,72.96348,1.73995,0.1766579
4/23/2023 6:59,33.11914,56.49173,0.02492002,30194.02,0.9999918,0.03671962,7.274145,0.6400084,3.338491,0,98,73.01847,1.81147,0.1766327
4/23/2023 8:14,33.40126,56.40271,0.02491212,29938.99,0.9999943,0.03666176,6.458273,0.6335294,3.648815,0,98,73.03247,1.722341,0.1712206
4/23/2023 9:29,34.14755,56.1072,0.02486049,29284.68,0.9999928,0.03646968,7.894341,0.6243577,4.508514,0,98,73.02447,1.702812,0.1648358
4/23/2023 10:44,35.34471,55.85334,0.02485432,28292.78,0.9999697,0.03630468,6.444351,0.606979,5.775537,0,98,73.01247,1.717955,0.1664052
4/23/2023 11:59,36.3243,55.63937,0.0248344,27529.78,0.9999319,0.0361656,7.307646,0.6011937,6.824731,0,98,72.97748,1.699058,0.1620318
4/23/2023 13:14,36.3127,55.42616,0.02474121,27538.57,0.9999266,0.03602701,9.432228,0.6140405,6.945262,0,98,72.93147,1.722769,0.1644849
4/23/2023 14:29,36.21661,54.95399,0.02452971,27611.64,0.9999169,0.0357201,7.104529,0.6327339,7.148442,0,98,72.91348,1.73488,0.172531
4/23/2023 15:44,35.26163,54.35521,0.02420492,28359.44,0.9999406,0.03533088,11.89613,0.6668781,6.608684,0,98,72.86847,1.866065,0.1895627
4/23/2023 16:59,34.4278,53.86662,0.0239339,29046.3,0.9999589,0.0350133,13.14693,0.7194068,6.106308,0,98,72.85248,1.790508,0.1727953
4/23/2023 18:14,33.90751,53.99904,0.02395002,29491.99,0.9999756,0.03509938,8.097101,0.7651054,5.519791,0,98,72.87948,1.792836,0.1769418
4/23/2023 19:29,33.6315,54.23973,0.02402932,29734.03,0.9999843,0.03525583,9.164092,0.7822099,5.107473,0,98,72.89748,1.951446,0.1954723
4/23/2023 20:44,33.34536,54.5587,0.02413885,29989.18,0.9999909,0.03546316,26.18283,0.7892675,4.64309,0,98,72.96247,1.821517,0.1842754
4/23/2023 21:59,33.19123,54.81348,0.02423156,30128.44,0.9999934,0.03562876,8.492414,0.7468116,4.347147,0,98,73.00648,1.867887,0.1816687
4/23/2023 23:14,33.08927,55.00322,0.02430119,30221.28,0.9999944,0.0357521,7.03475,0.7182603,4.140718,0,98,72.98548,1.844518,0.1901979
4/24/2023 0:29,32.98955,55.11201,0.02433692,30312.63,0.9999947,0.03582281,6.734602,0.6994141,3.983818,0,98,72.94848,1.774411,0.1728552
4/24/2023 1:44,32.96865,55.22227,0.02438068,30331.85,0.9999946,0.03589448,9.390554,0.6841667,3.901431,0,98,72.94048,1.825739,0.1798444
4/24/2023 2:59,33.01739,55.29959,0.0244175,30287.07,0.9999947,0.03594473,7.657024,0.6771722,3.90387,0,98,72.87948,1.807867,0.18803
4/24/2023 4:14,33.10601,55.3614,0.02445175,30206,0.9999948,0.03598491,24.35701,0.6693361,3.952778,0,98,72.89748,1.774747,0.1853838
4/24/2023 5:29,33.00224,55.48115,0.02449128,30300.97,0.9999945,0.03606275,24.64346,0.6623527,3.787275,0,98,72.87647,1.809037,0.17535
4/24/2023 6:44,33.05561,55.54431,0.0245227,30252.05,0.9999945,0.0361038,25.22061,0.6603939,3.802173,0,98,72.86247,1.769743,0.1841403
4/24/2023 7:59,33.27557,55.44351,0.02450218,30052.08,0.9999948,0.03603828,20.39374,0.6569176,4.066525,0,98,72.86147,1.818197,0.1767323
4/24/2023 9:14,33.86618,55.24652,0.02447409,29527.99,0.9999901,0.03591024,18.63676,0.6449015,4.738275,0,98,72.86847,1.810405,0.1824049
4/24/2023 10:29,35.0378,54.95313,0.02444571,28540.61,0.9999618,0.03571954,6.952269,0.6284605,6.025873,0,98,72.87048,1.729646,0.1741754
4/24/2023 11:44,35.62537,54.79325,0.02441977,28069.88,0.9999376,0.03561561,7.044164,0.6259274,6.684718,0,98,72.88248,1.795387,0.1802743
4/24/2023 12:59,35.98991,54.32521,0.02424112,27785.56,0.9999077,0.03531139,12.04684,0.6332304,7.329319,0,98,72.83547,1.83119,0.1773181
4/24/2023 14:14,35.53832,53.77832,0.02397352,28138.64,0.9999118,0.03495591,8.431519,0.6586899,7.242403,0,98,72.80048,1.865263,0.1832046
4/24/2023 15:29,34.62073,52.9645,0.02355871,28884.43,0.9999291,0.03442693,12.84911,0.7117629,6.866969,0,98,72.73647,1.866861,0.188911
4/24/2023 16:44,33.77926,52.63904,0.02335855,29603.96,0.9999538,0.03421538,10.81715,0.7922989,6.241622,0,98,72.70647,1.780362,0.1754012
4/24/2023 17:59,33.20499,52.76141,0.02336691,30115.95,0.9999734,0.03429491,14.91005,0.8524576,5.593843,0,98,72.80247,1.82347,0.1775304
4/24/2023 19:14,32.91769,52.94556,0.02342169,30378.8,0.9999822,0.03441461,10.05627,0.6788094,5.195143,0,98,72.74947,1.866309,0.1895777
4/24/2023 20:29,32.79556,53.35216,0.02358297,30491.93,0.9999883,0.0346789,11.4531,0.6200102,4.827216,0,97,72.77448,1.79087,0.1789384
4/24/2023 21:44,32.87028,53.61497,0.02370013,30422.62,0.9999894,0.03484973,8.09011,0.6623687,4.742421,0,97,72.88448,1.820623,0.1771957
4/24/2023 22:59,32.77421,53.86551,0.02379671,30511.79,0.9999921,0.03501258,9.547137,0.7756498,4.499749,0,97,72.84148,1.650282,0.1584146
4/25/2023 0:14,32.73927,53.87249,0.02379646,30544.36,0.9999924,0.03501712,8.427092,0.6579846,4.461661,0,97,72.83147,1.728673,0.174804
4/25/2023 1:29,32.60007,54.05492,0.02385984,30674.78,0.9999938,0.0351357,12.01816,0.7332979,4.219459,0,97,72.80748,1.771545,0.1750058
4/25/2023 2:44,32.70896,54.28847,0.02396746,30572.66,0.999994,0.03528751,9.372221,0.6729588,4.188632,0,97,72.68948,1.791041,0.1819001
4/25/2023 3:59,32.66786,54.41372,0.02401574,30611.13,0.9999943,0.03536892,10.60646,0.6330541,4.076471,0,97,72.70747,1.74815,0.1676912
4/25/2023 5:14,32.57859,54.52468,0.02405328,30695,0.9999944,0.03544104,7.395107,0.5495384,3.926796,0,97,72.68347,1.729022,0.1678555
4/25/2023 6:29,32.51699,54.60183,0.02407927,30753.16,0.9999943,0.03549119,8.094889,0.5904233,3.823519,0,97,72.70647,1.779862,0.183614
4/25/2023 7:44,32.66878,54.53076,0.0240645,30610.26,0.9999945,0.03544499,10.78097,2.188158,4.009895,0,97,72.72148,1.726793,0.1732621
4/25/2023 8:59,33.21331,54.37639,0.02405051,30108.41,0.9999911,0.03534465,9.710114,0.5371895,4.623246,0,97,72.71947,1.727845,0.1726642
4/25/2023 10:14,34.20105,54.22618,0.02407018,29238.87,0.999972,0.03524701,6.875915,2.066974,5.665502,0,97,72.72548,1.635915,0.1638778
4/25/2023 11:29,34.99746,54.16313,0.02410323,28573.5,0.9999458,0.03520603,7.432886,0.5550402,6.473777,0,97,72.74648,1.632653,0.1576722
4/25/2023 12:44,34.49623,54.15055,0.02406077,28988.68,0.9999624,0.03519785,6.678488,0.5460325,5.997015,0,97,72.71848,1.731211,0.1831663
4/25/2023 13:59,34.22843,54.32539,0.02411463,29215.48,0.9999729,0.0353115,10.02344,0.549059,5.631581,0,97,72.66048,1.716009,0.1735165
4/25/2023 15:14,33.89689,53.9663,0.02393523,29501.23,0.9999753,0.0350781,8.575769,0.6198105,5.529434,0,97,72.59848,1.660046,0.1611911
4/25/2023 16:29,34.06236,54.2197,0.02405635,29357.92,0.9999753,0.03524281,6.809498,0.562563,5.535526,0,97,72.54048,1.694278,0.1650159
4/25/2023 17:44,33.73799,54.29368,0.02406111,29640.18,0.999983,0.03529089,7.019662,0.5479671,5.177909,0,97,72.56247,1.727937,0.1747306
4/25/2023 18:59,33.70247,54.45138,0.02412479,29671.41,0.9999853,0.03539339,8.258312,0.6315007,5.04954,0,97,72.58847,1.695619,0.1714959
4/25/2023 20:14,33.41087,54.80847,0.02424952,29930.38,0.9999919,0.03562551,12.65064,0.5849287,4.559852,0,97,72.65247,1.73446,0.1673975
4/25/2023 21:29,33.11104,54.83675,0.02423383,30201.41,0.999994,0.03564389,6.853631,0.6090076,4.257125,0,97,72.75647,1.72649,0.1654843
4/25/2023 22:44,32.8402,54.99171,0.02427252,30450.48,0.9999946,0.03574461,6.950613,0.6084914,3.910182,0,97,72.78648,1.748465,0.1731426
4/25/2023 23:59,32.62846,55.15824,0.02432054,30648.09,0.9999936,0.03585286,7.411825,0.6508395,3.614807,0,97,72.72748,1.664708,0.1627079
4/26/2023 1:14,32.43751,55.09347,0.02427447,30828.51,0.9999925,0.03581075,6.114789,0.5911489,3.469752,0,97,72.74548,1.685802,0.1648528
4/26/2023 2:29,32.33245,55.15256,0.02428798,30928.68,0.9999914,0.03584917,5.187714,1.052414,3.336991,0,97,72.68448,1.7407,0.1683376
4/26/2023 3:44,32.19105,55.18177,0.02428519,31064.54,0.9999896,0.03586815,5.228829,1.166182,3.186583,0,97,72.65948,1.69458,0.1720951
4/26/2023 4:59,32.26735,55.2213,0.02430942,30991.08,0.9999902,0.03589384,5.341373,1.262043,3.237072,0,97,72.71648,1.7431,0.1763369
4/26/2023 6:14,32.2398,55.21485,0.02430389,31017.57,0.9999899,0.03588965,5.491827,1.337043,3.214512,0,97,72.76347,1.726944,0.1731563
4/26/2023 7:29,32.13199,55.16682,0.02427283,31121.63,0.999989,0.03585843,5.638297,0.7166658,3.138817,0,97,72.82648,1.722631,0.167202
4/26/2023 8:44,32.38104,54.92513,0.02419934,30882.27,0.9999928,0.03570133,5.780804,0.7105225,3.51041,0,97,72.90248,1.64685,0.1642515
4/26/2023 9:59,33.43881,54.57637,0.02415458,29905.37,0.99999,0.03547464,9.372283,0.5662,4.722388,0,97,72.95448,1.668515,0.160987
4/26/2023 11:14,34.18185,54.36495,0.02412776,29255.29,0.9999747,0.03533722,6.391791,0.711527,5.562715,0,97,73.03147,1.695251,0.1651203
4/26/2023 12:29,34.0111,54.43865,0.02414523,29402.17,0.9999795,0.03538512,10.39225,0.5514001,5.353932,0,97,73.08848,1.660303,0.1580402
4/26/2023 13:44,35.00735,54.21858,0.02412784,28565.43,0.9999468,0.03524207,18.97685,0.576571,6.448734,0,97,73.07148,1.6423,0.1630603
4/26/2023 14:59,34.90241,54.2476,0.02413272,28651.32,0.9999512,0.03526094,14.4598,0.5555408,6.329364,0,97,73.10047,1.594766,0.1611558
4/26/2023 16:14,34.54699,54.1942,0.02408333,28946.08,0.9999618,0.03522623,8.330379,0.7516251,6.019191,0,97,73.09148,1.655371,0.1673345
4/26/2023 17:29,34.20744,54.32011,0.02411071,29233.4,0.9999734,0.03530807,6.722628,0.5560442,5.614559,0,97,73.11648,1.566387,0.153107
4/26/2023 18:44,33.95554,54.42479,0.02413476,29450.28,0.9999804,0.03537611,7.569584,0.585464,5.308814,0,97,73.15247,1.614085,0.1572408
4/26/2023 19:59,33.83657,54.77662,0.02427359,29553.82,0.9999866,0.03560481,5.684076,0.5502076,4.985294,0,97,73.19747,1.565618,0.1552331
4/26/2023 21:14,33.46961,54.89591,0.02429148,29877.85,0.9999918,0.03568234,6.244116,0.6073876,4.565037,0,97,73.24248,1.591551,0.1545412
4/26/2023 22:29,33.22509,54.92224,0.02428014,30097.74,0.9999937,0.03569945,5.549395,0.8635542,4.316637,0,97,73.28448,1.562225,0.1644551
4/26/2023 23:44,33.01904,54.98068,0.02428513,30285.56,0.9999945,0.03573744,6.155624,0.5592386,4.086758,0,97,73.25047,1.50569,0.1436854
4/27/2023 0:59,32.8818,55.06268,0.02430601,30411.96,0.9999946,0.03579074,5.708018,1.413069,3.909445,0,97,73.24947,1.497339,0.142819
4/27/2023 2:14,32.79129,55.10374,0.02431418,30495.9,0.9999944,0.03581743,5.613323,1.954515,3.800153,0,97,73.19048,1.590992,0.1592927
4/27/2023 3:29,32.70978,55.19266,0.0243429,30571.89,0.9999939,0.03587523,8.955453,0.8142852,3.672634,0,97,73.13947,1.539895,0.1673232
4/27/2023 4:44,32.59177,55.15014,0.02431349,30682.59,0.9999934,0.03584759,4.802356,1.298456,3.584524,0,97,73.11147,1.571128,0.1587396
4/27/2023 5:59,32.55025,55.16926,0.02431719,30721.73,0.999993,0.03586002,6.579483,0.6531414,3.534396,0,97,73.08748,1.489725,0.1497014
4/27/2023 7:14,32.51911,55.05454,0.02426671,30751.15,0.9999932,0.03578545,5.724042,0.6011845,3.569149,0,97,73.07948,1.476029,0.139949
4/27/2023 8:29,32.71935,54.86905,0.02420986,30562.96,0.9999945,0.03566488,8.000148,0.527426,3.864766,0,97,73.13348,1.47614,0.1399623
4/27/2023 9:44,33.48843,54.48408,0.02412011,29861.06,0.9999888,0.03541465,6.103528,1.67971,4.824409,0,97,73.12247,1.507064,0.1480369
4/27/2023 10:59,34.46142,54.30122,0.02412258,29017.96,0.9999663,0.03529579,8.143227,1.480344,5.870909,0,97,73.12647,1.494611,0.1516766
4/27/2023 12:14,35.93011,54.03814,0.02411204,27831.81,0.999901,0.03512479,5.298342,0.5687486,7.455645,0,97,73.06847,1.492546,0.1610356
4/27/2023 13:29,36.45106,53.81338,0.02404522,27434.04,0.9998634,0.0349787,7.407101,2.501699,8.107883,0,97,73.01347,1.539461,0.1525856
4/27/2023 14:44,36.06623,53.35108,0.02381924,27726.77,0.9998676,0.03467821,6.927635,2.617276,8.037533,0,97,72.95148,1.6504,0.1653706
4/27/2023 15:59,35.23991,52.6966,0.02348221,28376.91,0.9998897,0.03425279,8.482873,0.6408541,7.656133,0,97,72.86748,1.70199,0.1706308
4/27/2023 17:14,34.21314,52.389,0.02328144,29228.53,0.9999303,0.03405285,12.30473,2.00997,6.835581,0,97,72.85147,1.668936,0.1694598
4/27/2023 18:29,33.2394,52.20494,0.02313189,30084.78,0.9999622,0.03393321,9.375485,2.663004,5.979573,0,97,72.85748,1.557491,0.1514661
4/27/2023 19:44,32.92227,52.42203,0.02319981,30374.57,0.9999748,0.03407432,7.291494,0.6383251,5.524795,0,97,72.85648,1.699472,0.1799272
4/27/2023 20:59,32.55851,52.59916,0.0232449,30713.94,0.9999846,0.03418946,10.36194,2.577371,5.051986,0,97,72.90047,1.698321,0.1626255
4/27/2023 22:14,32.31927,52.75856,0.02329139,30941.29,0.9999894,0.03429307,6.034987,0.7542558,4.716659,0,97,72.89148,1.679634,0.1663417
4/27/2023 23:29,32.09154,52.88196,0.02332269,31160.86,0.9999923,0.03437327,8.23179,1.434379,4.416353,0,97,72.83147,1.625158,0.1649513
4/28/2023 0:44,31.9126,52.93865,0.02332982,31335.59,0.9999934,0.03441012,7.647383,1.717247,4.205353,0,97,72.82148,1.620371,0.1595911
4/28/2023 1:59,31.78897,53.02174,0.02335273,31457.45,0.9999939,0.03446413,6.115029,1.037526,4.033827,0,97,72.80148,1.612756,0.1600393
4/28/2023 3:14,31.73376,53.20275,0.0234226,31512.18,0.9999939,0.03458178,7.197322,2.464602,3.872694,0,97,72.80048,1.668193,0.1616513
4/28/2023 4:29,31.65102,53.23903,0.02342955,31594.55,0.9999936,0.03460537,6.793616,1.320163,3.770044,0,97,72.80247,1.595529,0.1737276
4/28/2023 5:44,31.61618,53.33423,0.02346551,31629.38,0.9999933,0.03466725,8.336267,1.497557,3.680277,0,97,72.84747,1.656489,0.159758
4/28/2023 6:59,31.55304,53.38977,0.02348214,31692.66,0.9999927,0.03470336,6.834135,1.314838,3.586079,0,97,72.90948,1.523023,0.1538334
4/28/2023 8:14,31.80035,53.28128,0.02346167,31446.2,0.9999939,0.03463283,5.692297,2.135709,3.892096,0,97,73.03748,1.636257,0.1598035
4/28/2023 9:29,31.46584,53.15738,0.02337739,31780.5,0.9999929,0.0345523,19.03176,1.15984,3.63546,0,97,73.20947,1.668371,0.160281
4/28/2023 10:44,32.81588,52.77387,0.02334048,30473.05,0.9999821,0.03430301,15.74726,0.7904751,5.200033,0,97,73.28947,1.615373,0.1581063
4/28/2023 11:59,33.93046,52.63002,0.02336569,29472.04,0.9999481,0.03420951,6.808861,0.6362538,6.397792,0,97,73.29147,1.497109,0.1505554
4/28/2023 13:14,35.029,52.61427,0.02343304,28547.78,0.999898,0.03419928,13.32426,1.196986,7.501036,0,97,73.31947,1.487798,0.1612901
4/28/2023 14:29,34.18869,52.89247,0.02349738,29249.44,0.9999448,0.0343801,8.023197,1.225082,6.485923,0,97,73.30447,1.550974,0.1497037
4/28/2023 15:44,34.34713,52.76888,0.02345516,29114.51,0.9999353,0.03429977,6.927133,2.344872,6.722386,0,97,73.29447,1.57408,0.1627313
4/28/2023 16:59,34.18119,52.92048,0.02350892,29255.85,0.9999459,0.03439831,15.79821,0.6646989,6.460591,0,97,73.29347,1.612941,0.1615372
4/28/2023 18:14,33.63377,53.18891,0.02358305,29732.02,0.9999693,0.03457279,7.138194,2.888829,5.751075,0,97,73.32648,1.60098,0.1526898
4/28/2023 19:29,33.35839,53.34119,0.02362587,29977.46,0.9999784,0.03467177,5.006152,0.759632,5.386271,0,97,73.38448,1.593464,0.1554454
4/28/2023 20:44,33.04615,53.60016,0.02370923,30260.71,0.9999871,0.0348401,5.419107,1.818243,4.923078,0,97,73.45448,1.538817,0.1526849
4/28/2023 21:59,32.74558,53.73555,0.02373965,30538.47,0.9999916,0.03492811,6.52342,0.834711,4.548896,0,96,73.55347,1.595483,0.1528561
4/28/2023 23:14,32.47836,53.7827,0.02373488,30789.74,0.9999935,0.03495875,5.274611,0.6674737,4.260792,0,96,73.55247,1.555261,0.1473229
4/29/2023 0:29,32.31385,53.89089,0.02376443,30946.48,0.9999942,0.03502908,6.512802,0.6338841,4.037501,0,96,73.57547,1.592037,0.1601346
4/29/2023 1:44,32.1354,53.90378,0.02375254,31118.34,0.9999941,0.03503745,3.996397,1.230035,3.856661,0,96,73.58647,1.637598,0.1750837
4/29/2023 2:59,32.00204,53.93497,0.02375234,31248.01,0.9999936,0.03505773,4.920018,0.8288085,3.70915,0,96,73.60548,1.581675,0.152123
4/29/2023 4:14,31.8717,53.91922,0.02373281,31375.8,0.999993,0.03504749,6.369473,1.733005,3.591667,0,96,73.62148,1.514133,0.1521902
4/29/2023 5:29,31.79084,53.95764,0.02374048,31455.6,0.9999923,0.03507246,5.853256,1.199088,3.491172,0,96,73.61048,1.516855,0.1497412
4/29/2023 6:44,31.74333,53.9584,0.02373595,31502.68,0.9999919,0.03507296,4.25167,0.7158198,3.444636,0,96,73.62948,1.549436,0.1474328
4/29/2023 7:59,31.94541,53.70279,0.02365062,31303.4,0.9999939,0.03490681,6.066597,1.37056,3.78826,0,96,73.69248,1.526356,0.1485921
4/29/2023 9:14,32.62396,53.51781,0.02363738,30652.32,0.9999914,0.03478658,4.631334,2.175853,4.559718,0,96,73.72848,1.493355,0.1508095
4/29/2023 10:29,33.95309,53.06483,0.02355433,29452.4,0.9999573,0.03449214,5.770781,1.372159,6.143546,0,96,73.69848,1.50471,0.1437109
4/29/2023 11:44,35.20568,52.82037,0.02353423,28404.51,0.999896,0.03433324,5.207494,0.6612138,7.540161,0,96,73.69048,1.485629,0.148562
4/29/2023 12:59,36.17907,52.57838,0.02348441,27640.29,0.9998259,0.03417595,6.749331,2.263795,8.670041,0,96,73.63248,1.556491,0.1565369
4/29/2023 14:14,36.28012,52.18996,0.0233172,27563.3,0.999799,0.03392347,10.00449,0.5662684,9.039543,0,96,73.60248,1.571582,0.1504246
4/29/2023 15:29,35.74487,51.67202,0.02305908,27976.04,0.9998118,0.03358681,17.15065,0.9217675,8.862016,0,96,73.52948,1.594858,0.1604514
4/29/2023 16:44,34.59235,51.17523,0.02277546,28908.13,0.999867,0.0332639,12.88493,1.592811,8.034492,0,96,73.50147,1.707021,0.1733544
4/29/2023 17:59,33.57079,50.98598,0.02262915,29787.8,0.9999169,0.03314089,14.15878,1.670553,7.116846,0,96,73.49947,1.777817,0.1798301
4/29/2023 19:14,32.82829,50.8442,0.02251675,30461.53,0.9999456,0.03304873,11.35303,1.361561,6.448396,0,96,73.47948,1.672033,0.1660916
4/29/2023 20:29,32.31724,51.07588,0.02257806,30943.23,0.9999679,0.03319932,11.7603,2.948889,5.771205,0,96,73.52348,1.754199,0.1683327
4/29/2023 21:44,31.82135,51.06416,0.02253336,31425.44,0.99998,0.03319171,10.46512,0.63347,5.270372,0,96,73.56548,1.721302,0.1741164
4/29/2023 22:59,31.60098,51.26359,0.02259915,31644.59,0.9999862,0.03332133,9.120736,1.299158,4.918379,0,96,73.54348,1.616958,0.1557326
4/30/2023 0:14,31.35923,51.24542,0.02257042,31888.54,0.9999893,0.03330953,9.580628,0.6132998,4.682826,0,96,73.50748,1.727529,0.1740441
4/30/2023 1:29,31.34708,51.58241,0.02271074,31900.9,0.9999915,0.03352856,11.55734,0.6591912,4.46119,0,96,73.44848,1.740838,0.1683596
4/30/2023 2:44,31.24737,51.66171,0.0227348,32002.7,0.9999925,0.03358011,9.50932,2.745112,4.311295,0,96,73.37647,1.697861,0.170926
4/30/2023 3:59,31.23468,51.73762,0.02276533,32015.7,0.9999928,0.03362945,8.566155,1.593343,4.251995,0,96,73.35848,1.705633,0.1626584
4/30/2023 5:14,31.24034,51.8909,0.02282982,32009.9,0.9999931,0.03372908,6.906088,1.730714,4.164335,0,96,73.35748,1.700169,0.1628033
4/30/2023 6:29,31.11111,51.84542,0.02279865,32142.85,0.9999933,0.03369952,10.93369,1.280156,4.061494,0,96,73.36848,1.6557,0.1600066
4/30/2023 7:44,31.24158,51.83906,0.02280831,32008.62,0.999993,0.03369539,7.880879,0.6243372,4.197115,0,96,73.38947,1.610172,0.1564583
4/30/2023 8:59,31.72557,51.60057,0.02275199,31520.32,0.9999875,0.03354037,10.17431,0.5511618,4.834021,0,96,73.39047,1.618819,0.1709655
4/30/2023 10:14,32.90751,51.38104,0.02275357,30388.2,0.9999556,0.03339767,6.814801,0.5726911,6.175925,0,96,73.39347,1.557412,0.1683756
4/30/2023 11:29,34.24418,51.15092,0.02274393,29202.04,0.9998869,0.0332481,7.507322,0.5233614,7.694945,0,96,73.38548,1.585968,0.1610076
4/30/2023 12:44,35.08017,50.8685,0.02266715,28506.13,0.9998196,0.03306452,20.41704,0.6253827,8.749983,0,96,73.36348,1.639998,0.1606524
4/30/2023 13:59,35.07876,50.3353,0.02242993,28507.28,0.9997913,0.03271795,12.26751,1.646673,9.130982,0,96,73.30948,1.756231,0.1713853
4/30/2023 15:14,34.39994,49.5276,0.02203565,29069.82,0.9998002,0.03219294,21.19026,0.6271752,9.008422,0,96,73.25848,1.678832,0.1698201
4/30/2023 16:29,33.19456,48.80957,0.02165247,30125.42,0.9998525,0.03172622,34.69148,0.6432633,8.250424,0,96,73.22948,1.859858,0.1962998
4/30/2023 17:44,32.18597,48.3747,0.02140142,31069.43,0.9998976,0.03144356,38.54716,0.642078,7.478911,0,96,73.20747,1.778804,0.1791286
4/30/2023 18:59,31.24272,48.11948,0.02122825,32007.46,0.999937,0.03127766,41.58507,0.6776667,6.637367,0,96,73.19147,1.74093,0.1571829
4/30/2023 20:14,30.68671,48.3691,0.02129509,32587.4,0.9999644,0.03143992,24.61336,2.445413,5.860099,0,96,73.21347,1.655102,0.1470801
4/30/2023 21:29,29.84578,47.77169,0.02097412,33505.57,0.999977,0.0310516,21.70318,0.9569109,5.353864,0,96,73.26748,1.442014,0.1209793
4/30/2023 22:44,30.13498,48.66429,0.02137641,33184.03,0.9999829,0.03163179,18.43629,0.7020233,5.065034,0,96,73.27947,1.539961,0.14352
4/30/2023 23:59,30.0366,48.92928,0.02147985,33292.71,0.9999872,0.03180404,19.0175,0.6624424,4.784178,0,96,73.30047,1.662479,0.1494212
5/1/2023 1:14,29.91477,49.19426,0.02158041,33428.3,0.9999904,0.03197627,20.80799,1.346286,4.4814,0,96,73.27348,1.632022,0.1452297
5/1/2023 2:29,29.83518,49.41924,0.02166728,33517.48,0.9999919,0.03212251,30.82051,0.7093526,4.252135,0,96,73.21848,1.63798,0.1479864
5/1/2023 3:44,29.79289,49.58015,0.02173047,33565.06,0.9999924,0.0322271,12.11102,0.8291614,4.104895,0,96,73.20647,1.612671,0.1519529
5/1/2023 4:59,29.78737,49.75721,0.02180366,33571.27,0.9999926,0.03234218,10.92525,0.6543329,3.987139,0,96,73.19048,1.701859,0.1524988
5/1/2023 6:14,29.80747,49.91534,0.02187131,33548.64,0.9999926,0.03244497,18.20413,0.6817504,3.908929,0,96,73.17548,1.69769,0.1526131
5/1/2023 7:29,29.93419,49.92854,0.02188893,33406.62,0.9999926,0.03245355,7.968016,0.712327,4.03354,0,96,73.20147,1.550231,0.137748
5/1/2023 8:44,30.54645,49.8191,0.02189897,32737.03,0.999988,0.03238241,9.417068,1.580888,4.745943,0,96,73.21748,1.467961,0.1357395
5/1/2023 9:59,31.6793,49.54268,0.02187294,31566.36,0.9999566,0.03220275,9.968718,0.7257531,6.122221,0,96,73.19347,1.515704,0.1370457
5/1/2023 11:14,32.64875,49.45205,0.0219011,30629.05,0.9999118,0.03214383,10.07166,0.6952292,7.209957,0,96,73.19547,1.393745,0.1230926
5/1/2023 12:29,33.89208,49.35332,0.02193152,29505.42,0.9998296,0.03207966,12.96977,0.6799636,8.598083,0,96,73.14948,1.554387,0.1453045
5/1/2023 13:44,33.84814,49.00106,0.02177289,29543.72,0.9998146,0.03185069,11.38931,0.7175393,8.809609,0,96,73.10947,1.667759,0.1421394
5/1/2023 14:59,33.48454,48.47012,0.02151795,29864.53,0.9998142,0.03150558,18.52147,0.8295703,8.813005,0,96,73.04547,1.684743,0.1527745
5/1/2023 16:14,32.7741,47.84406,0.02120231,30511.9,0.9998351,0.03109864,208.9708,0.8916848,8.508855,0,96,72.97147,1.642944,0.1647382
5/1/2023 17:29,31.76696,47.59042,0.02103228,31479.25,0.9998912,0.03093378,87.55753,0.9796559,7.592012,0,96,72.95348,1.737668,0.1517021
5/1/2023 18:44,31.04105,47.41035,0.02090719,32215.4,0.9999245,0.03081673,326.0515,1.070013,6.923122,0,96,72.96648,1.762471,0.1608559
5/1/2023 19:59,30.67236,47.83115,0.02106324,32602.64,0.9999527,0.03109025,20.69684,0.8484206,6.217976,0,96,72.99448,1.6735,0.1524432
5/1/2023 21:14,30.29947,48.02029,0.0211161,33003.87,0.9999693,0.03121319,17.45942,0.8204573,5.679176,0,96,73.02348,1.748971,0.165856
5/1/2023 22:29,30.10894,48.37789,0.02125295,33212.73,0.9999797,0.03144563,15.93286,0.9129478,5.228783,0,96,73.03947,1.629984,0.1472566
5/1/2023 23:44,29.84415,48.33912,0.02121437,33507.41,0.9999843,0.03142042,16.748,0.7412156,4.968127,0,96,73.06748,1.63581,0.1448583
5/2/2023 0:59,29.72993,48.41347,0.02123592,33636.14,0.9999869,0.03146875,22.20142,0.9652883,4.794968,0,96,73.06947,1.689201,0.1534639
5/2/2023 2:14,29.78999,48.59545,0.02131779,33568.33,0.9999876,0.03158704,9.536092,0.7761605,4.73927,0,96,73.05048,1.587264,0.1409851
5/2/2023 3:29,29.72836,48.73975,0.02137302,33637.91,0.9999894,0.03168084,24.04976,0.6592177,4.578053,0,96,73.06748,1.558115,0.1427468
5/2/2023 4:44,29.78978,48.85088,0.02142515,33568.56,0.9999894,0.03175307,9.85375,0.6352809,4.571226,0,96,73.12848,1.67031,0.1542249
5/2/2023 5:59,29.84259,48.89418,0.02144803,33509.16,0.9999893,0.03178122,11.86929,0.7113626,4.599502,0,96,73.16648,1.651682,0.1496639
5/2/2023 7:14,29.9793,48.99444,0.02150226,33356.34,0.9999884,0.03184639,11.21543,0.6846842,4.680206,0,96,73.20947,1.576717,0.1486131
5/2/2023 8:29,30.15304,48.93264,0.02149132,33164.15,0.9999855,0.03180622,8.503922,0.6450636,4.90656,0,96,73.25348,1.53668,0.1426478
5/2/2023 9:44,30.66321,48.87669,0.02150987,32612.37,0.9999743,0.03176985,13.0306,0.6048751,5.489979,0,96,73.25448,1.493624,0.1368942
5/2/2023 10:59,31.31956,48.85328,0.02155017,31928.93,0.9999534,0.03175463,10.44907,0.6135735,6.209126,0,96,73.28347,1.471031,0.1209498
5/2/2023 12:14,31.92852,48.90546,0.02161572,31319.96,0.9999294,0.03178855,8.264482,0.5814956,6.825237,0,96,73.24448,1.545629,0.1313549
5/2/2023 13:29,32.45745,48.78633,0.02159837,30809.57,0.9998979,0.03171112,10.20763,0.6544188,7.476332,0.009,96,73.20348,1.530282,0.1307816
5/2/2023 14:44,33.00375,48.60115,0.02154968,30299.59,0.9998558,0.03159075,13.02515,0.6317793,8.197554,0,96,73.16348,1.573843,0.1408714
5/2/2023 15:59,32.8132,48.35234,0.02142909,30475.54,0.9998572,0.03142902,12.26822,0.7170756,8.174183,0,96,73.11547,1.614466,0.1441524
5/2/2023 17:14,32.04865,48.02034,0.02123785,31202.57,0.9998917,0.03121322,23.85915,0.8077229,7.586244,0,96,73.09947,1.498845,0.1310074
5/2/2023 18:29,31.38807,47.63668,0.0210285,31859.24,0.9999143,0.03096384,181.619,0.6775195,7.141644,0,96,73.14248,1.649033,0.149123
5/2/2023 19:44,30.68446,47.53599,0.02093697,32589.79,0.9999446,0.03089839,103.0599,0.714416,6.43976,0,96,73.18047,1.598231,0.128246
5/2/2023 20:59,30.39984,47.74716,0.02100696,32894.91,0.9999605,0.03103566,9.700261,1.025216,5.978201,0,96,73.27448,1.625716,0.1518276
5/2/2023 22:14,30.2694,47.9752,0.0210945,33036.66,0.9999693,0.03118388,21.81442,0.6548697,5.677405,0,96,73.40747,1.712649,0.1577725
5/2/2023 23:29,30.17851,48.06403,0.02112521,33136.16,0.9999734,0.03124162,7.848563,0.6395686,5.517357,0,96,73.35448,1.592761,0.1343454
5/3/2023 0:44,29.99134,48.1258,0.02113635,33342.96,0.9999788,0.03128177,8.078198,0.6604902,5.27153,0,95,73.36948,1.610389,0.1386675
5/3/2023 1:59,29.81669,48.33035,0.02120832,33538.27,0.9999847,0.03141472,8.628274,0.6308724,4.944249,0,95,73.34148,1.518098,0.1248737
5/3/2023 3:14,29.69752,48.46023,0.02125279,33672.85,0.9999877,0.03149915,7.370012,0.6300732,4.728921,0,95,73.32248,1.560292,0.1350161
5/3/2023 4:29,29.79757,48.81676,0.02141152,33559.78,0.9999892,0.03173089,7.979896,0.6542165,4.601903,0,95,73.31548,1.501035,0.118308
5/3/2023 5:44,29.76854,48.95087,0.0214652,33592.51,0.9999903,0.03181806,7.628529,0.6034025,4.4833,0,95,73.30747,1.551132,0.1296303
5/3/2023 6:59,29.71826,48.99773,0.02148028,33649.34,0.9999909,0.03184853,8.972629,0.6125887,4.399121,0,95,73.32447,1.544208,0.1309712
5/3/2023 8:14,30.05163,48.90173,0.02146955,33276.07,0.9999868,0.03178613,10.06505,0.6190072,4.818374,0,95,73.33247,1.514711,0.1383136
5/3/2023 9:29,30.99213,48.72778,0.02147189,32266.26,0.999962,0.03167306,6.600407,0.5775901,5.943765,0,95,73.33347,1.494282,0.118361
5/3/2023 10:44,32.00609,48.56777,0.02147417,31244.05,0.9999145,0.03156905,6.58698,0.5680616,7.146521,0,95,73.32148,1.389333,0.1083934
5/3/2023 11:59,33.45001,48.41342,0.02149095,29895.36,0.9998138,0.03146872,7.411266,0.5727556,8.818029,0,95,73.27847,1.473721,0.1203362
5/3/2023 13:14,34.12204,48.24563,0.0214492,29306.57,0.9997472,0.03135966,10.67686,0.5963201,9.673122,0,95,73.21548,1.529434,0.1212472
5/3/2023 14:29,34.17226,47.90655,0.02129912,29263.5,0.9997198,0.03113926,18.23238,0.568784,9.990103,0,95,73.14248,1.67127,0.1463593
5/3/2023 15:44,33.96196,47.95481,0.02131131,29444.71,0.9997428,0.03117063,27.06573,0.6170095,9.722903,0,95,73.05547,1.545195,0.140873
5/3/2023 16:59,32.6887,47.214,0.02091818,30591.61,0.9998079,0.0306891,26.94854,0.7455851,8.892766,0,95,73.00448,1.769256,0.1643371
5/3/2023 18:14,31.4909,46.71707,0.02063243,31755.21,0.9998711,0.03036609,27.38815,0.8426809,7.935963,0,95,73.00148,1.924231,0.1863752
5/3/2023 19:29,30.74467,46.84694,0.02064271,32525.96,0.9999206,0.03045051,27.01532,0.7812511,7.004148,0,95,73.00348,1.737885,0.1588331
5/3/2023 20:44,30.41624,47.17726,0.02076315,32877.17,0.999946,0.03066522,20.19473,0.9578202,6.399086,0,95,73.03247,1.728713,0.1615384
5/3/2023 21:59,30.19834,47.46,0.02086871,33114.4,0.9999611,0.030849,18.47604,0.9362404,5.957611,0,95,73.03947,1.815941,0.1704073
5/3/2023 23:14,30.08082,47.69708,0.02096107,33243.77,0.9999695,0.0310031,12.9847,0.8119161,5.663026,0,95,73.04947,1.805828,0.1624081
5/4/2023 0:29,30.14854,47.99806,0.02109473,33169.11,0.999973,0.03119874,13.85277,0.7465761,5.529839,0,95,73.03647,1.702405,0.1611083
5/4/2023 1:44,30.36978,48.51066,0.0213306,32927.46,0.9999757,0.03153193,11.46734,0.8566852,5.421125,0,95,73.01748,1.780632,0.1617462
5/4/2023 2:59,30.20611,48.57455,0.02134435,33105.89,0.9999804,0.03157346,12.40166,0.733863,5.201595,0,95,72.98347,1.642102,0.1493097
5/4/2023 4:14,29.82927,48.30412,0.02119832,33524.12,0.9999843,0.03139767,11.71823,0.6827216,4.975424,0,95,72.99348,1.727075,0.1553164
5/4/2023 5:29,29.85101,48.67843,0.02135805,33499.7,0.9999875,0.03164098,15.98925,0.7696618,4.7502,0,95,72.98548,1.763016,0.1622074
5/4/2023 6:44,29.88672,48.78555,0.02140626,33459.68,0.9999879,0.03171061,10.57386,0.6807309,4.718025,0,95,73.03748,1.818262,0.1707428
5/4/2023 7:59,30.08292,48.74458,0.02140594,33241.45,0.9999847,0.03168398,7.32631,0.6114472,4.955715,0,95,73.05148,1.549804,0.1418665
5/4/2023 9:14,30.62218,48.66851,0.02141794,32656.07,0.9999719,0.03163453,6.890491,0.5870239,5.586332,0,95,73.06748,1.6802,0.1458009
5/4/2023 10:29,31.80171,48.46367,0.02141544,31444.85,0.9999214,0.03150139,7.574008,0.607502,6.999832,0,95,73.04347,1.547542,0.1360871
5/4/2023 11:44,32.92303,48.36087,0.02143907,30373.88,0.99985,0.03143457,9.871818,0.6166024,8.286823,0,95,73.03448,1.634435,0.1541989
5/4/2023 12:59,33.66876,48.39825,0.02149546,29701.13,0.9997955,0.03145886,6.909006,0.6146241,9.066006,0,95,72.96648,1.706981,0.1543226
5/4/2023 14:14,33.79645,48.25558,0.02143815,29588.9,0.9997764,0.03136613,9.778366,0.6704053,9.312226,0,95,72.94947,1.666247,0.1425115
5/4/2023 15:29,33.22123,47.95066,0.02127333,30101.23,0.9998064,0.03116793,10.91374,0.6866523,8.91734,0,95,72.90948,1.66674,0.1495304
5/4/2023 16:44,32.68606,47.52087,0.02105434,30594.08,0.9998249,0.03088856,18.13721,0.7111189,8.655783,0,95,72.86548,1.630484,0.1336858
5/4/2023 17:59,31.651,47.2532,0.02087743,31594.58,0.9998844,0.03071458,15.80294,0.8893227,7.71293,0,95,72.86748,1.670777,0.1564341
5/4/2023 19:14,30.84134,47.25485,0.02082627,32424.02,0.9999292,0.03071565,15.91749,0.7704269,6.814643,0,95,72.88647,1.776253,0.1636817
5/4/2023 20:29,30.48953,47.59871,0.0209499,32798.14,0.9999539,0.03093916,9.034888,0.8580073,6.180823,0,95,72.96648,1.603275,0.1539528
5/4/2023 21:44,30.39571,48.33021,0.02125585,32899.38,0.9999722,0.03141464,13.12595,1.035012,5.571593,0.009,95,73.04347,1.642576,0.1363571
5/4/2023 22:59,29.84128,48.04981,0.02109175,33510.63,0.999981,0.03123238,7.858057,2.623775,5.159624,0,95,73.06748,1.600677,0.1448414
5/5/2023 0:14,30.13801,49.02823,0.02153034,33180.69,0.9999866,0.03186835,12.03291,2.791603,4.827604,0,95,73.10247,1.687952,0.1546148
5/5/2023 1:29,29.64269,48.62735,0.0213182,33735.13,0.9999895,0.03160778,7.270273,2.656858,4.559627,0,95,73.07048,1.725234,0.1619822
5/5/2023 2:44,29.77673,49.19152,0.02156671,33583.27,0.9999914,0.03197449,6.786409,2.693521,4.33625,0,95,73.07848,1.699683,0.1530854
5/5/2023 3:59,29.42312,48.89642,0.02141071,33986.88,0.9999921,0.03178267,6.95526,2.187319,4.148898,0,95,73.06648,1.585219,0.1406813
5/5/2023 5:14,29.24473,48.86856,0.02138225,34194.2,0.9999923,0.03176457,33.0261,0.820753,3.975724,0,95,73.06348,1.648927,0.1556567
5/5/2023 6:29,29.32759,49.18035,0.02151976,34097.59,0.9999923,0.03196723,5.369475,1.026676,3.86531,0,95,73.07848,1.739707,0.1614049
5/5/2023 7:44,29.41266,49.03134,0.02146595,33998.97,0.9999923,0.03187037,8.652303,1.190281,4.051029,0,95,73.09847,1.636809,0.1544261
5/5/2023 8:59,30.10675,49.05012,0.02153685,33215.14,0.9999873,0.03188258,6.517286,2.021898,4.779881,0,95,73.11648,1.691851,0.1605828
5/5/2023 10:14,31.57749,49.35829,0.0217862,31668.13,0.999956,0.03208289,8.312485,2.308185,6.139299,0,95,73.08348,1.560745,0.153286
5/5/2023 11:29,32.45972,48.54659,0.02149358,30807.42,0.9998883,0.03155528,8.415183,1.736995,7.650797,0,95,73.07648,1.604873,0.1534023
5/5/2023 12:44,33.45545,48.38153,0.02147707,29890.49,0.9998116,0.031448,25.80135,1.645674,8.847755,0,95,73.04748,1.531104,0.1546904
5/5/2023 13:59,34.04049,48.57339,0.02159207,29376.79,0.9997747,0.0315727,9.372134,2.021287,9.335352,0,95,73.02847,1.604642,0.1476526
5/5/2023 15:14,34.30946,49.12177,0.0218502,29146.48,0.9997846,0.03192915,9.826458,1.413709,9.212424,0,95,72.98148,1.603676,0.1460194
5/5/2023 16:29,33.91654,49.12466,0.02183138,29484.14,0.999816,0.03193103,7.393229,1.100008,8.79151,0,95,72.93747,1.716811,0.1721649
5/5/2023 17:44,32.66176,48.68553,0.02156677,30616.85,0.9998818,0.0316456,10.26145,1.792582,7.768165,0,95,72.94447,1.725846,0.164991
5/5/2023 18:59,0,0,0,1.00E+07,0.9999593,0,1.830381,0.003902081,5.388266,0,95,72.94848,0.115358,0.02230798
5/5/2023 20:14,0,0,0,1.00E+07,0.9999014,0,1.886845,0.00133596,7.060632,0,95,73.58247,0.06988942,0.1472939
5/5/2023 21:29,0,0,0,1.00E+07,0.9995,0,1.998065,0.000530295,11.99659,0,95,77.81247,0.1620233,-0.01243307
5/5/2023 22:44,0,0,2.33E-10,1.00E+07,0.9994056,0,2.005638,0,12.78896,0,95,77.90948,0.1721296,-0.01070948
5/5/2023 23:59,0,0,1.16E-10,1.00E+07,0.9994944,0,1.958771,0.000307955,12.04607,0,95,77.94347,0.174957,-0.01055226
5/6/2023 1:14,0,0,2.33E-10,1.00E+07,0.9995929,0,1.870846,0.000372741,11.14141,0,95,77.97147,0.2012124,-0.008070957
5/6/2023 2:29,0,0,0,1.00E+07,0.9996689,0,1.849962,0.000115499,10.36639,0,95,77.98247,0.1935323,-0.007838914
5/6/2023 3:44,0,0,0,1.00E+07,0.9997523,0,1.786471,0,9.40205,0,95,78.00948,0.1972474,-0.008478642
5/6/2023 4:59,0,0,2.33E-10,1.00E+07,0.9998184,0,1.730875,0.001140356,8.506861,0,95,78.05547,0.1961493,-0.007574959
5/6/2023 6:14,0,0,0,1.00E+07,0.9999033,0,1.699395,0.001380332,7.020784,0,95,78.09347,0.1761931,-0.009929227
5/6/2023 7:29,0,0,0,1.00E+07,0.9999313,0,1.638163,0.001515806,6.344603,0,95,78.14247,0.155152,-0.01277508
5/6/2023 8:44,0,0,0,1.00E+07,0.9998369,0,1.697252,0.001740381,8.226475,0,95,78.15947,0.1127673,-0.01557432
5/6/2023 9:59,0,0,1.16E-10,1.00E+07,0.9995161,0,1.705885,0,11.85443,0,95,78.15347,0.1608726,-0.01116788
5/6/2023 11:14,0,0,0,1.00E+07,0.999046,0,1.713939,0,15.36386,0,95,78.11847,0.2184069,-0.004842751
5/6/2023 12:29,0,0,0,1.00E+07,0.9987084,0,1.598828,0,17.38933,0,95,78.04548,0.2449845,-0.00269313
5/6/2023 13:44,0,0,0,1.00E+07,0.9985009,0,1.519789,0,18.51528,0.009,95,78.02948,0.243676,-0.00351659
5/6/2023 14:59,0,0,0,1.00E+07,0.9974894,0,1.462797,0,23.21779,0.054,95,77.40647,0.2384486,0.02225326
5/6/2023 16:14,0,0,0,1.00E+07,0.9975045,0,1.296855,0,23.15442,0.063,95,77.37048,0.1947422,0.006494682
5/6/2023 17:29,0,0,0,1.00E+07,0.9971457,0,1.036046,0,24.6158,0.099,95,77.77348,0.1736945,0.01489695
5/6/2023 18:44,0,0,0,1.00E+07,0.996903,0,1.271209,0,25.55984,0.126,95,77.76147,0.1442501,-0.01592745
5/6/2023 18:59,0,0,0,1.00E+07,0.997033,0,1.250476,0,25.05826,0.108,95,77.73647,0.1261087,-0.009562967